#
# This work is licensed under the Creative Commons 
# Attribution-NoDerivatives 4.0 International License. 
# To view a copy of this license, visit 
# http://creativecommons.org/licenses/by-nd/4.0/.
#
#      f(MHz)    AF (dB/m) 
        1e+08      44.3748
  1.05247e+08      52.8105
  1.10493e+08      55.9586
   1.1574e+08      57.8113
  1.20987e+08      59.7127
  1.26234e+08      61.4291
   1.3148e+08      62.8613
  1.36727e+08      65.5762
  1.41974e+08      66.3951
   1.4722e+08      67.1091
  1.52467e+08      67.1671
  1.57714e+08      67.0425
  1.62961e+08      67.2423
  1.68207e+08       67.537
  1.73454e+08      68.0555
  1.78701e+08      68.3346
  1.83948e+08      68.3865
  1.89194e+08      67.3291
  1.94441e+08           68
  1.99688e+08      68.3099
  2.04934e+08      69.1587
  2.10181e+08      69.0319
  2.15428e+08      68.8593
  2.20675e+08      68.8058
  2.25921e+08      68.5035
  2.31168e+08      68.1575
  2.36415e+08      68.0309
  2.41662e+08      70.5027
  2.46908e+08      69.8734
  2.52155e+08      71.4761
  2.57402e+08      70.8085
  2.62648e+08       70.817
  2.67895e+08      70.8644
  2.73142e+08      70.8843
  2.78388e+08      70.7064
  2.83635e+08      70.5867
  2.88882e+08      70.4606
  2.94129e+08      68.0357
  2.99375e+08      68.1029
  3.04622e+08      65.2276
  3.09869e+08      65.1691
  3.15116e+08      65.2316
  3.20362e+08      65.2446
  3.25609e+08      65.1544
  3.30856e+08      65.4821
  3.36102e+08      65.6122
  3.41349e+08      65.7296
  3.46596e+08      65.6675
  3.51843e+08      67.5387
  3.57089e+08      67.7077
  3.62336e+08      67.9113
  3.67583e+08        67.89
   3.7283e+08      67.9596
  3.78076e+08      67.9295
  3.83323e+08      67.8432
   3.8857e+08      67.9351
  3.93816e+08      68.0546
  3.99063e+08      67.9549
   4.0431e+08      66.2844
  4.09556e+08       65.966
  4.14803e+08      65.7657
   4.2005e+08      65.5221
  4.25297e+08      65.1234
  4.30543e+08      64.9197
   4.3579e+08      64.5298
  4.41037e+08      64.1667
  4.46284e+08      63.8789
   4.5153e+08       63.555
  4.56777e+08      63.1727
  4.62024e+08      62.9389
   4.6727e+08       62.654
  4.72517e+08      62.4148
  4.77764e+08      62.1847
  4.83011e+08      61.9609
  4.88257e+08      61.8912
  4.93504e+08      61.7909
  4.98751e+08      61.5996
  5.03998e+08      61.5221
  5.09244e+08      61.5188
  5.14491e+08      61.5496
  5.19738e+08      61.5064
  5.24984e+08      61.5552
  5.30231e+08      61.5963
  5.35478e+08      61.5853
  5.40724e+08      61.5267
  5.45971e+08      61.5377
  5.51218e+08      61.5097
  5.56465e+08      61.4892
  5.61711e+08      61.4885
  5.66958e+08      61.4055
  5.72205e+08       61.417
  5.77452e+08      61.3335
  5.82698e+08      61.2743
  5.87945e+08      61.1781
  5.93192e+08      61.0569
  5.98438e+08       60.966
  6.03685e+08      60.8371
  6.08932e+08      60.7612
  6.14179e+08      60.6342
  6.19425e+08      60.5683
  6.24672e+08      60.3646
  6.29919e+08      60.2344
  6.35166e+08      60.1289
  6.40412e+08      60.0756
  6.45659e+08      59.9882
  6.50906e+08      59.9496
  6.56152e+08      59.8751
  6.61399e+08      59.7685
  6.66646e+08      59.7034
  6.71893e+08       59.611
  6.77139e+08      59.5921
  6.82386e+08      59.5611
  6.87633e+08      59.4891
   6.9288e+08      59.4054
  6.98126e+08      59.3498
  7.03373e+08      59.2471
   7.0862e+08      59.1751
  7.13866e+08      59.1119
  7.19113e+08      59.0038
   7.2436e+08       58.897
  7.29606e+08       58.754
  7.34853e+08      58.6477
    7.401e+08      58.5829
  7.45347e+08      58.5148
  7.50593e+08      58.3935
   7.5584e+08      58.2769
  7.61087e+08      58.1674
  7.66334e+08      58.0656
   7.7158e+08       57.937
  7.76827e+08      57.8327
  7.82074e+08      57.7807
   7.8732e+08      57.6907
  7.92567e+08      57.5931
  7.97814e+08      57.4803
  8.03061e+08      57.4107
  8.08307e+08      57.3119
  8.13554e+08       57.253
  8.18801e+08      57.1931
  8.24048e+08      57.1399
  8.29294e+08      57.0936
  8.34541e+08      57.0149
  8.39788e+08      56.9203
  8.45034e+08      56.8637
  8.50281e+08      56.8336
  8.55528e+08      56.8045
  8.60774e+08        56.79
  8.66021e+08      56.7524
  8.71268e+08      56.7001
  8.76515e+08      56.6743
  8.81761e+08      56.6212
  8.87008e+08      56.5927
  8.92255e+08      56.5647
  8.97502e+08      56.5263
  9.02748e+08      56.4513
  9.07995e+08      56.3913
  9.13242e+08      56.3276
  9.18488e+08      56.2656
  9.23735e+08      56.2023
  9.28982e+08      56.1229
  9.34229e+08      56.0501
  9.39475e+08      55.9739
  9.44722e+08      55.9121
  9.49969e+08      55.8511
  9.55216e+08      55.8058
  9.60462e+08      55.7185
  9.65709e+08      55.6394
  9.70956e+08      55.5513
  9.76202e+08      55.4874
  9.81449e+08      55.4442
  9.86696e+08      55.3968
  9.91942e+08      55.3385
  9.97189e+08      55.2689
  1.00244e+09      55.2128
  1.00768e+09      55.1492
  1.01293e+09       55.097
  1.01818e+09       55.058
  1.02342e+09      55.0307
  1.02867e+09      54.9945
  1.03392e+09      54.9461
  1.03916e+09      54.8848
  1.04441e+09      54.8403
  1.04966e+09      54.7991
   1.0549e+09      54.7473
  1.06015e+09       54.709
   1.0654e+09      54.6788
  1.07064e+09      54.6266
  1.07589e+09      54.5712
  1.08114e+09      54.5191
  1.08638e+09       54.459
  1.09163e+09      54.4158
  1.09688e+09      54.3585
  1.10212e+09      54.3172
  1.10737e+09      54.2688
  1.11262e+09      54.1956
  1.11786e+09      54.1314
  1.12311e+09      54.0772
  1.12836e+09      54.0284
   1.1336e+09      53.9619
  1.13885e+09      53.9113
   1.1441e+09      53.8674
  1.14934e+09      53.8216
  1.15459e+09      53.7577
  1.15984e+09      53.6913
  1.16508e+09      53.6452
  1.17033e+09      53.5988
  1.17558e+09      53.5536
  1.18082e+09      53.5058
  1.18607e+09       53.463
  1.19132e+09      53.4079
  1.19656e+09       53.346
  1.20181e+09      53.2804
  1.20706e+09       53.221
   1.2123e+09      53.1686
  1.21755e+09      53.1104
   1.2228e+09      53.0473
  1.22804e+09      52.9787
  1.23329e+09      52.9086
  1.23854e+09        52.85
  1.24378e+09      52.8122
  1.24903e+09      52.7643
  1.25428e+09      52.7111
  1.25952e+09      52.6452
  1.26477e+09      52.5736
  1.27002e+09      52.5089
  1.27526e+09      52.4534
  1.28051e+09       52.407
  1.28576e+09      52.3616
  1.29101e+09      52.3082
  1.29625e+09      52.2444
   1.3015e+09      52.1895
  1.30675e+09        52.14
  1.31199e+09      52.0997
  1.31724e+09      52.0566
  1.32249e+09      52.0088
  1.32773e+09       51.961
  1.33298e+09      51.9143
  1.33823e+09      51.8678
  1.34347e+09      51.8212
  1.34872e+09      51.7692
  1.35397e+09      51.7163
  1.35921e+09      51.6689
  1.36446e+09      51.6213
  1.36971e+09      51.5752
  1.37495e+09      51.5292
   1.3802e+09      51.4749
  1.38545e+09      51.4174
  1.39069e+09       51.358
  1.39594e+09      51.3053
  1.40119e+09      51.2616
  1.40643e+09      51.2017
  1.41168e+09      51.1358
  1.41693e+09      51.0755
  1.42217e+09      51.0227
  1.42742e+09      50.9674
  1.43267e+09      50.9077
  1.43791e+09        50.86
  1.44316e+09      50.8228
  1.44841e+09      50.7776
  1.45365e+09      50.7196
   1.4589e+09      50.6749
  1.46415e+09      50.6332
  1.46939e+09       50.584
  1.47464e+09      50.5428
  1.47989e+09      50.5193
  1.48513e+09      50.5158
  1.49038e+09      50.5051
  1.49563e+09      50.4758
  1.50087e+09      50.4391
  1.50612e+09      50.4037
  1.51137e+09      50.3752
  1.51662e+09      50.3537
  1.52186e+09       50.347
  1.52711e+09      50.3372
  1.53236e+09       50.315
   1.5376e+09      50.2758
  1.54285e+09       50.226
   1.5481e+09      50.1854
  1.55334e+09      50.1498
  1.55859e+09      50.1237
  1.56384e+09      50.0995
  1.56908e+09      50.0705
  1.57433e+09      50.0214
  1.57958e+09      49.9593
  1.58482e+09      49.8956
  1.59007e+09      49.8341
  1.59532e+09      49.7845
  1.60056e+09      49.7458
  1.60581e+09      49.7247
  1.61106e+09      49.6985
   1.6163e+09      49.6515
  1.62155e+09      49.5945
   1.6268e+09      49.5423
  1.63204e+09      49.5022
  1.63729e+09      49.4721
  1.64254e+09      49.4577
  1.64778e+09      49.4479
  1.65303e+09      49.4276
  1.65828e+09      49.3859
  1.66352e+09      49.3321
  1.66877e+09      49.2856
  1.67402e+09      49.2477
  1.67926e+09      49.2237
  1.68451e+09      49.2061
  1.68976e+09      49.1824
    1.695e+09      49.1398
  1.70025e+09       49.083
   1.7055e+09      49.0135
  1.71074e+09      48.9449
  1.71599e+09      48.8882
  1.72124e+09       48.838
  1.72648e+09      48.8004
  1.73173e+09      48.7597
  1.73698e+09      48.7044
  1.74222e+09      48.6376
  1.74747e+09      48.5663
  1.75272e+09      48.4894
  1.75796e+09      48.4242
  1.76321e+09      48.3794
  1.76846e+09      48.3473
   1.7737e+09      48.3095
  1.77895e+09      48.2505
   1.7842e+09      48.1877
  1.78944e+09      48.1254
  1.79469e+09      48.0749
  1.79994e+09        48.03
  1.80518e+09      47.9971
  1.81043e+09      47.9662
  1.81568e+09      47.9282
  1.82092e+09      47.8769
  1.82617e+09      47.8332
  1.83142e+09      47.8003
  1.83666e+09        47.76
  1.84191e+09       47.721
  1.84716e+09      47.6805
   1.8524e+09      47.6486
  1.85765e+09      47.6166
   1.8629e+09      47.5811
  1.86814e+09      47.5433
  1.87339e+09      47.5014
  1.87864e+09      47.4595
  1.88388e+09      47.4228
  1.88913e+09      47.3953
  1.89438e+09      47.3722
  1.89962e+09      47.3457
  1.90487e+09      47.3059
  1.91012e+09      47.2627
  1.91536e+09      47.2187
  1.92061e+09      47.1817
  1.92586e+09      47.1601
  1.93111e+09      47.1352
  1.93635e+09       47.099
   1.9416e+09      47.0592
  1.94685e+09      47.0216
  1.95209e+09      46.9902
  1.95734e+09      46.9615
  1.96259e+09      46.9308
  1.96783e+09      46.9045
  1.97308e+09      46.8671
  1.97833e+09      46.8225
  1.98357e+09      46.7825
  1.98882e+09      46.7575
  1.99407e+09       46.727
  1.99931e+09      46.6824
  2.00456e+09      46.6385
  2.00981e+09      46.6081
  2.01505e+09      46.5758
   2.0203e+09      46.5371
  2.02555e+09      46.4997
  2.03079e+09       46.465
  2.03604e+09       46.437
  2.04129e+09       46.399
  2.04653e+09      46.3644
  2.05178e+09      46.3308
  2.05703e+09      46.2965
  2.06227e+09      46.2573
  2.06752e+09      46.2301
  2.07277e+09      46.2205
  2.07801e+09      46.2182
  2.08326e+09      46.2091
  2.08851e+09      46.1824
  2.09375e+09      46.1508
    2.099e+09      46.1218
  2.10425e+09      46.1098
  2.10949e+09      46.1091
  2.11474e+09      46.1111
  2.11999e+09      46.1081
  2.12523e+09      46.0899
  2.13048e+09      46.0627
  2.13573e+09      46.0395
  2.14097e+09      46.0236
  2.14622e+09      46.0131
  2.15147e+09      46.0035
  2.15672e+09      45.9926
  2.16196e+09      45.9672
  2.16721e+09      45.9389
  2.17246e+09      45.9074
   2.1777e+09      45.8788
  2.18295e+09       45.849
   2.1882e+09       45.814
  2.19344e+09      45.7817
  2.19869e+09      45.7578
  2.20394e+09      45.7307
  2.20918e+09      45.6892
  2.21443e+09      45.6472
  2.21968e+09      45.6102
  2.22492e+09      45.5824
  2.23017e+09      45.5476
  2.23542e+09      45.5139
  2.24066e+09      45.4792
  2.24591e+09      45.4322
  2.25116e+09      45.3812
   2.2564e+09       45.345
  2.26165e+09      45.3272
   2.2669e+09      45.3061
  2.27214e+09      45.2685
  2.27739e+09      45.2188
  2.28264e+09      45.1713
  2.28788e+09      45.1266
  2.29313e+09      45.0937
  2.29838e+09      45.0763
  2.30362e+09      45.0609
  2.30887e+09      45.0264
  2.31412e+09      44.9755
  2.31936e+09      44.9337
  2.32461e+09      44.9079
  2.32986e+09      44.8854
   2.3351e+09      44.8565
  2.34035e+09      44.8187
   2.3456e+09      44.7788
  2.35084e+09      44.7454
  2.35609e+09      44.7129
  2.36134e+09      44.6844
  2.36658e+09       44.661
  2.37183e+09      44.6347
  2.37708e+09      44.5981
  2.38232e+09      44.5598
  2.38757e+09      44.5316
  2.39282e+09       44.514
  2.39806e+09      44.4951
  2.40331e+09      44.4685
  2.40856e+09      44.4432
   2.4138e+09      44.4238
  2.41905e+09      44.4026
   2.4243e+09      44.3801
  2.42954e+09      44.3596
  2.43479e+09      44.3492
  2.44004e+09      44.3466
  2.44528e+09      44.3425
  2.45053e+09      44.3374
  2.45578e+09      44.3279
  2.46102e+09      44.3153
  2.46627e+09      44.3032
  2.47152e+09      44.2931
  2.47676e+09      44.2848
  2.48201e+09      44.2804
  2.48726e+09      44.2749
   2.4925e+09      44.2751
  2.49775e+09      44.2766
    2.503e+09      44.2708
  2.50824e+09      44.2578
  2.51349e+09      44.2411
  2.51874e+09      44.2239
  2.52398e+09      44.2147
  2.52923e+09       44.217
  2.53448e+09      44.2165
  2.53972e+09      44.2074
  2.54497e+09      44.1802
  2.55022e+09      44.1488
  2.55546e+09      44.1319
  2.56071e+09      44.1303
  2.56596e+09      44.1326
   2.5712e+09      44.1263
  2.57645e+09      44.1082
   2.5817e+09        44.08
  2.58695e+09      44.0492
  2.59219e+09       44.023
  2.59744e+09      44.0052
  2.60269e+09      43.9993
  2.60793e+09      43.9892
  2.61318e+09      43.9739
  2.61843e+09      43.9614
  2.62367e+09      43.9509
  2.62892e+09      43.9359
  2.63417e+09      43.9226
  2.63941e+09      43.9177
  2.64466e+09      43.9152
  2.64991e+09       43.911
  2.65515e+09       43.904
   2.6604e+09      43.9045
  2.66565e+09      43.9085
  2.67089e+09      43.9055
  2.67614e+09      43.9076
  2.68139e+09       43.918
  2.68663e+09       43.926
  2.69188e+09      43.9282
  2.69713e+09      43.9318
  2.70237e+09      43.9413
  2.70762e+09      43.9522
  2.71287e+09      43.9542
  2.71811e+09      43.9548
  2.72336e+09      43.9559
  2.72861e+09      43.9496
  2.73385e+09      43.9418
   2.7391e+09      43.9351
  2.74435e+09      43.9385
  2.74959e+09      43.9477
  2.75484e+09       43.957
  2.76009e+09      43.9558
  2.76533e+09      43.9466
  2.77058e+09      43.9314
  2.77583e+09      43.9176
  2.78107e+09      43.9135
  2.78632e+09      43.9158
  2.79157e+09       43.922
  2.79681e+09      43.9256
  2.80206e+09      43.9223
  2.80731e+09      43.9086
  2.81256e+09      43.9004
   2.8178e+09      43.9023
  2.82305e+09      43.9118
   2.8283e+09      43.9272
  2.83354e+09      43.9467
  2.83879e+09      43.9637
  2.84404e+09      43.9626
  2.84928e+09      43.9468
  2.85453e+09      43.9323
  2.85978e+09      43.9293
  2.86502e+09      43.9359
  2.87027e+09      43.9497
  2.87552e+09      43.9671
  2.88076e+09      43.9708
  2.88601e+09      43.9562
  2.89126e+09      43.9311
   2.8965e+09      43.9157
  2.90175e+09      43.9081
    2.907e+09      43.9018
  2.91224e+09      43.9008
  2.91749e+09      43.8942
  2.92274e+09      43.8685
  2.92798e+09      43.8301
  2.93323e+09      43.7948
  2.93848e+09      43.7698
  2.94372e+09      43.7626
  2.94897e+09      43.7657
  2.95422e+09      43.7656
  2.95946e+09      43.7522
  2.96471e+09      43.7218
  2.96996e+09      43.6911
   2.9752e+09      43.6788
  2.98045e+09      43.6765
   2.9857e+09      43.6794
  2.99094e+09      43.6815
  2.99619e+09      43.6786
  3.00144e+09      43.6718
  3.00668e+09      43.6682
  3.01193e+09      43.6757
  3.01718e+09      43.6951
  3.02242e+09       43.712
  3.02767e+09       43.727
  3.03292e+09      43.7416
  3.03816e+09      43.7531
  3.04341e+09      43.7687
  3.04866e+09      43.7809
   3.0539e+09      43.7958
  3.05915e+09      43.8175
   3.0644e+09      43.8441
  3.06964e+09      43.8682
  3.07489e+09       43.893
  3.08014e+09      43.9103
  3.08538e+09      43.9232
  3.09063e+09      43.9427
  3.09588e+09      43.9617
  3.10112e+09      43.9831
  3.10637e+09      44.0028
  3.11162e+09      44.0188
  3.11686e+09      44.0355
  3.12211e+09      44.0521
  3.12736e+09      44.0702
   3.1326e+09      44.0892
  3.13785e+09      44.1094
   3.1431e+09       44.128
  3.14834e+09      44.1428
  3.15359e+09       44.159
  3.15884e+09        44.18
  3.16408e+09       44.204
  3.16933e+09      44.2233
  3.17458e+09      44.2433
  3.17982e+09      44.2618
  3.18507e+09      44.2798
  3.19032e+09      44.2966
  3.19556e+09      44.3159
  3.20081e+09      44.3403
  3.20606e+09      44.3621
   3.2113e+09      44.3836
  3.21655e+09      44.4052
   3.2218e+09      44.4309
  3.22705e+09       44.453
  3.23229e+09      44.4669
  3.23754e+09      44.4758
  3.24279e+09      44.4876
  3.24803e+09      44.5041
  3.25328e+09      44.5206
  3.25853e+09      44.5422
  3.26377e+09       44.557
  3.26902e+09      44.5652
  3.27427e+09      44.5641
  3.27951e+09       44.557
  3.28476e+09      44.5537
  3.29001e+09      44.5625
  3.29525e+09      44.5754
   3.3005e+09      44.5876
  3.30575e+09      44.5955
  3.31099e+09       44.592
  3.31624e+09      44.5841
  3.32149e+09      44.5727
  3.32673e+09      44.5627
  3.33198e+09      44.5671
  3.33723e+09      44.5841
  3.34247e+09      44.5991
  3.34772e+09      44.6071
  3.35297e+09       44.602
  3.35821e+09      44.5908
  3.36346e+09      44.5823
  3.36871e+09      44.5817
  3.37395e+09      44.5951
   3.3792e+09      44.6248
  3.38445e+09      44.6488
  3.38969e+09      44.6526
  3.39494e+09      44.6434
  3.40019e+09      44.6364
  3.40543e+09      44.6403
  3.41068e+09      44.6617
  3.41593e+09      44.6988
  3.42117e+09       44.739
  3.42642e+09       44.764
  3.43167e+09      44.7708
  3.43691e+09      44.7726
  3.44216e+09      44.7864
  3.44741e+09      44.8107
  3.45266e+09       44.839
   3.4579e+09      44.8726
  3.46315e+09      44.9026
   3.4684e+09      44.9235
  3.47364e+09      44.9382
  3.47889e+09      44.9559
  3.48414e+09       44.974
  3.48938e+09      44.9931
  3.49463e+09      45.0137
  3.49988e+09      45.0371
  3.50512e+09      45.0594
  3.51037e+09      45.0754
  3.51562e+09      45.0844
  3.52086e+09      45.0892
  3.52611e+09      45.0946
  3.53136e+09       45.105
   3.5366e+09      45.1179
  3.54185e+09      45.1323
   3.5471e+09      45.1435
  3.55234e+09      45.1504
  3.55759e+09      45.1539
  3.56284e+09      45.1575
  3.56808e+09      45.1635
  3.57333e+09      45.1709
  3.57858e+09       45.181
  3.58382e+09      45.1948
  3.58907e+09      45.2105
  3.59432e+09      45.2222
  3.59956e+09      45.2335
  3.60481e+09      45.2474
  3.61006e+09      45.2631
   3.6153e+09      45.2735
  3.62055e+09      45.2865
   3.6258e+09      45.3055
  3.63104e+09      45.3237
  3.63629e+09       45.337
  3.64154e+09      45.3509
  3.64678e+09      45.3697
  3.65203e+09      45.3911
  3.65728e+09      45.4084
  3.66252e+09      45.4257
  3.66777e+09      45.4452
  3.67302e+09      45.4632
  3.67826e+09      45.4753
  3.68351e+09      45.4871
  3.68876e+09      45.4993
    3.694e+09      45.5113
  3.69925e+09      45.5244
   3.7045e+09      45.5378
  3.70974e+09      45.5556
  3.71499e+09      45.5691
  3.72024e+09      45.5789
  3.72548e+09      45.5875
  3.73073e+09      45.5959
  3.73598e+09      45.6065
  3.74122e+09      45.6206
  3.74647e+09      45.6357
  3.75172e+09      45.6497
  3.75696e+09      45.6587
  3.76221e+09      45.6684
  3.76746e+09       45.686
   3.7727e+09      45.7078
  3.77795e+09      45.7324
   3.7832e+09       45.755
  3.78844e+09      45.7732
  3.79369e+09      45.7937
  3.79894e+09       45.818
  3.80418e+09      45.8447
  3.80943e+09      45.8743
  3.81468e+09      45.9027
  3.81992e+09      45.9279
  3.82517e+09      45.9533
  3.83042e+09      45.9759
  3.83566e+09      46.0013
  3.84091e+09      46.0332
  3.84616e+09       46.066
   3.8514e+09      46.0953
  3.85665e+09      46.1183
   3.8619e+09       46.141
  3.86715e+09      46.1574
  3.87239e+09      46.1714
  3.87764e+09      46.1853
  3.88289e+09      46.2032
  3.88813e+09      46.2222
  3.89338e+09      46.2366
  3.89863e+09      46.2467
  3.90387e+09      46.2571
  3.90912e+09      46.2698
  3.91437e+09      46.2744
  3.91961e+09      46.2819
  3.92486e+09      46.2902
  3.93011e+09      46.2986
  3.93535e+09      46.3056
   3.9406e+09      46.3152
  3.94585e+09      46.3248
  3.95109e+09      46.3275
  3.95634e+09      46.3272
  3.96159e+09       46.333
  3.96683e+09      46.3489
  3.97208e+09      46.3676
  3.97733e+09      46.3866
  3.98257e+09      46.4007
  3.98782e+09      46.4101
  3.99307e+09      46.4156
  3.99831e+09      46.4229
  4.00356e+09      46.4371
  4.00881e+09      46.4554
  4.01405e+09      46.4725
   4.0193e+09      46.4867
  4.02455e+09      46.4943
  4.02979e+09      46.5018
  4.03504e+09       46.515
  4.04029e+09      46.5302
  4.04553e+09      46.5438
  4.05078e+09       46.559
  4.05603e+09      46.5727
  4.06127e+09      46.5797
  4.06652e+09      46.5811
  4.07177e+09      46.5834
  4.07701e+09      46.5913
  4.08226e+09      46.5966
  4.08751e+09      46.6023
  4.09276e+09      46.6069
    4.098e+09      46.6151
  4.10325e+09      46.6202
   4.1085e+09       46.625
  4.11374e+09      46.6337
  4.11899e+09      46.6418
  4.12424e+09      46.6469
  4.12948e+09      46.6507
  4.13473e+09      46.6558
  4.13998e+09      46.6622
  4.14522e+09      46.6754
  4.15047e+09      46.6907
  4.15572e+09      46.7057
  4.16096e+09      46.7192
  4.16621e+09       46.729
  4.17146e+09        46.74
   4.1767e+09       46.759
  4.18195e+09      46.7848
   4.1872e+09      46.8139
  4.19244e+09      46.8393
  4.19769e+09        46.86
  4.20294e+09       46.878
  4.20818e+09      46.8986
  4.21343e+09      46.9226
  4.21868e+09      46.9492
  4.22392e+09      46.9804
  4.22917e+09      47.0084
  4.23442e+09      47.0316
  4.23966e+09      47.0573
  4.24491e+09      47.0874
  4.25016e+09      47.1148
   4.2554e+09      47.1403
  4.26065e+09      47.1635
   4.2659e+09       47.182
  4.27114e+09      47.2052
  4.27639e+09       47.229
  4.28164e+09      47.2508
  4.28688e+09      47.2701
  4.29213e+09      47.2855
  4.29738e+09      47.2996
  4.30262e+09      47.3179
  4.30787e+09      47.3428
  4.31312e+09      47.3727
  4.31836e+09      47.4023
  4.32361e+09      47.4229
  4.32886e+09      47.4338
   4.3341e+09      47.4448
  4.33935e+09      47.4615
   4.3446e+09      47.4853
  4.34984e+09      47.5145
  4.35509e+09      47.5433
  4.36034e+09      47.5641
  4.36558e+09      47.5818
  4.37083e+09      47.6004
  4.37608e+09      47.6209
  4.38132e+09      47.6498
  4.38657e+09       47.681
  4.39182e+09      47.7092
  4.39706e+09      47.7313
  4.40231e+09      47.7482
  4.40756e+09      47.7633
   4.4128e+09      47.7789
  4.41805e+09      47.7908
   4.4233e+09       47.806
  4.42854e+09      47.8256
  4.43379e+09      47.8456
  4.43904e+09      47.8653
  4.44428e+09      47.8815
  4.44953e+09      47.8913
  4.45478e+09      47.8971
  4.46002e+09      47.9027
  4.46527e+09      47.9097
  4.47052e+09      47.9212
  4.47576e+09      47.9335
  4.48101e+09      47.9421
  4.48626e+09      47.9478
   4.4915e+09      47.9518
  4.49675e+09      47.9592
    4.502e+09      47.9699
  4.50724e+09      47.9825
  4.51249e+09      47.9951
  4.51774e+09      48.0068
  4.52299e+09       48.015
  4.52823e+09      48.0209
  4.53348e+09      48.0331
  4.53873e+09      48.0477
  4.54397e+09      48.0587
  4.54922e+09      48.0681
  4.55447e+09      48.0793
  4.55971e+09      48.0936
  4.56496e+09      48.1107
  4.57021e+09      48.1308
  4.57545e+09      48.1514
   4.5807e+09      48.1694
  4.58595e+09      48.1806
  4.59119e+09      48.1898
  4.59644e+09      48.2057
  4.60169e+09      48.2249
  4.60693e+09      48.2451
  4.61218e+09      48.2664
  4.61743e+09      48.2868
  4.62267e+09      48.3005
  4.62792e+09      48.3118
  4.63317e+09      48.3239
  4.63841e+09      48.3404
  4.64366e+09      48.3592
  4.64891e+09      48.3779
  4.65415e+09      48.3969
   4.6594e+09      48.4149
  4.66465e+09      48.4262
  4.66989e+09      48.4319
  4.67514e+09      48.4403
  4.68039e+09       48.453
  4.68563e+09      48.4695
  4.69088e+09      48.4885
  4.69613e+09      48.5069
  4.70137e+09      48.5209
  4.70662e+09      48.5268
  4.71187e+09      48.5311
  4.71711e+09      48.5362
  4.72236e+09       48.547
  4.72761e+09      48.5638
  4.73285e+09      48.5793
   4.7381e+09      48.5913
  4.74335e+09      48.5977
   4.7486e+09      48.6006
  4.75384e+09      48.6044
  4.75909e+09      48.6122
  4.76434e+09      48.6207
  4.76958e+09      48.6306
  4.77483e+09      48.6376
  4.78008e+09      48.6394
  4.78532e+09      48.6425
  4.79057e+09      48.6472
  4.79582e+09      48.6523
  4.80106e+09      48.6565
  4.80631e+09      48.6597
  4.81156e+09      48.6607
   4.8168e+09      48.6621
  4.82205e+09      48.6647
   4.8273e+09      48.6716
  4.83254e+09      48.6795
  4.83779e+09      48.6815
  4.84304e+09      48.6811
  4.84828e+09      48.6809
  4.85353e+09      48.6836
  4.85878e+09      48.6866
  4.86402e+09      48.6918
  4.86927e+09      48.6974
  4.87452e+09      48.7013
  4.87976e+09      48.7032
  4.88501e+09      48.7047
  4.89026e+09      48.7091
   4.8955e+09       48.715
  4.90075e+09        48.72
    4.906e+09      48.7229
  4.91124e+09      48.7286
  4.91649e+09      48.7379
  4.92174e+09      48.7475
  4.92698e+09      48.7545
  4.93223e+09       48.759
  4.93748e+09      48.7639
  4.94272e+09      48.7717
  4.94797e+09       48.782
  4.95322e+09      48.7959
  4.95846e+09      48.8135
  4.96371e+09      48.8308
  4.96896e+09      48.8428
   4.9742e+09      48.8542
  4.97945e+09      48.8676
   4.9847e+09      48.8836
  4.98994e+09      48.9006
  4.99519e+09      48.9178
  5.00044e+09      48.9376
  5.00568e+09      48.9574
  5.01093e+09      48.9751
  5.01618e+09      48.9893
  5.02142e+09      49.0048
  5.02667e+09      49.0205
  5.03192e+09      49.0401
  5.03716e+09      49.0597
  5.04241e+09      49.0766
  5.04766e+09      49.0891
   5.0529e+09      49.0979
  5.05815e+09       49.108
   5.0634e+09       49.119
  5.06864e+09      49.1309
  5.07389e+09      49.1427
  5.07914e+09      49.1541
  5.08438e+09      49.1631
  5.08963e+09      49.1724
  5.09488e+09      49.1834
  5.10012e+09      49.1937
  5.10537e+09      49.2006
  5.11062e+09      49.2033
  5.11586e+09      49.2069
  5.12111e+09      49.2163
  5.12636e+09      49.2296
   5.1316e+09      49.2412
  5.13685e+09      49.2511
   5.1421e+09      49.2577
  5.14734e+09      49.2607
  5.15259e+09      49.2663
  5.15784e+09      49.2778
  5.16309e+09      49.2938
  5.16833e+09      49.3105
  5.17358e+09      49.3202
  5.17883e+09      49.3238
  5.18407e+09      49.3273
  5.18932e+09      49.3333
  5.19457e+09      49.3443
  5.19981e+09      49.3613
  5.20506e+09      49.3815
  5.21031e+09      49.3939
  5.21555e+09      49.3992
   5.2208e+09      49.4009
  5.22605e+09      49.4035
  5.23129e+09      49.4134
  5.23654e+09      49.4296
  5.24179e+09      49.4463
  5.24703e+09        49.46
  5.25228e+09      49.4698
  5.25753e+09      49.4735
  5.26277e+09      49.4792
  5.26802e+09      49.4893
  5.27327e+09      49.5033
  5.27851e+09      49.5204
  5.28376e+09      49.5355
  5.28901e+09      49.5464
  5.29425e+09      49.5541
   5.2995e+09       49.562
  5.30475e+09      49.5718
  5.30999e+09      49.5846
  5.31524e+09      49.6021
  5.32049e+09      49.6225
  5.32573e+09      49.6392
  5.33098e+09      49.6532
  5.33623e+09      49.6663
  5.34147e+09      49.6799
  5.34672e+09       49.699
  5.35197e+09        49.72
  5.35721e+09      49.7414
  5.36246e+09      49.7626
  5.36771e+09      49.7833
  5.37295e+09      49.8023
   5.3782e+09      49.8243
  5.38345e+09      49.8479
   5.3887e+09      49.8731
  5.39394e+09      49.8998
  5.39919e+09       49.923
  5.40444e+09      49.9447
  5.40968e+09      49.9668
  5.41493e+09      49.9893
  5.42018e+09      50.0119
  5.42542e+09      50.0348
  5.43067e+09      50.0554
  5.43592e+09      50.0743
  5.44116e+09      50.0916
  5.44641e+09      50.1063
  5.45166e+09      50.1226
   5.4569e+09      50.1391
  5.46215e+09      50.1513
   5.4674e+09      50.1612
  5.47264e+09      50.1672
  5.47789e+09      50.1728
  5.48314e+09      50.1814
  5.48838e+09      50.1914
  5.49363e+09      50.2002
  5.49888e+09      50.2057
  5.50412e+09      50.2076
  5.50937e+09      50.2063
  5.51462e+09      50.2063
  5.51986e+09      50.2107
  5.52511e+09      50.2179
  5.53036e+09      50.2232
   5.5356e+09      50.2255
  5.54085e+09      50.2254
   5.5461e+09      50.2238
  5.55134e+09      50.2266
  5.55659e+09      50.2334
  5.56184e+09      50.2429
  5.56708e+09      50.2521
  5.57233e+09      50.2544
  5.57758e+09      50.2543
  5.58282e+09      50.2551
  5.58807e+09       50.258
  5.59332e+09      50.2633
  5.59856e+09      50.2693
  5.60381e+09      50.2754
  5.60906e+09      50.2777
   5.6143e+09      50.2764
  5.61955e+09      50.2748
   5.6248e+09      50.2768
  5.63004e+09      50.2814
  5.63529e+09      50.2852
  5.64054e+09      50.2866
  5.64578e+09       50.285
  5.65103e+09      50.2822
  5.65628e+09      50.2759
  5.66152e+09      50.2731
  5.66677e+09      50.2757
  5.67202e+09      50.2791
  5.67726e+09      50.2808
  5.68251e+09       50.279
  5.68776e+09      50.2768
    5.693e+09       50.276
  5.69825e+09      50.2797
   5.7035e+09      50.2869
  5.70874e+09      50.2964
  5.71399e+09      50.3004
  5.71924e+09      50.2995
  5.72448e+09      50.2994
  5.72973e+09      50.3054
  5.73498e+09      50.3165
  5.74022e+09      50.3303
  5.74547e+09      50.3444
  5.75072e+09      50.3558
  5.75596e+09      50.3647
  5.76121e+09      50.3745
  5.76646e+09      50.3877
   5.7717e+09      50.4032
  5.77695e+09      50.4207
   5.7822e+09      50.4382
  5.78744e+09       50.454
  5.79269e+09      50.4698
  5.79794e+09      50.4865
  5.80319e+09      50.5052
  5.80843e+09      50.5242
  5.81368e+09      50.5391
  5.81893e+09      50.5525
  5.82417e+09      50.5674
  5.82942e+09      50.5836
  5.83467e+09         50.6
  5.83991e+09      50.6175
  5.84516e+09      50.6321
  5.85041e+09      50.6429
  5.85565e+09      50.6486
   5.8609e+09      50.6512
  5.86615e+09      50.6581
  5.87139e+09      50.6722
  5.87664e+09      50.6902
  5.88189e+09      50.7035
  5.88713e+09      50.7098
  5.89238e+09      50.7086
  5.89763e+09      50.7052
  5.90287e+09      50.7053
  5.90812e+09      50.7098
  5.91337e+09      50.7211
  5.91861e+09      50.7332
  5.92386e+09      50.7388
  5.92911e+09      50.7377
  5.93435e+09      50.7358
   5.9396e+09      50.7342
  5.94485e+09      50.7354
  5.95009e+09      50.7418
  5.95534e+09      50.7514
  5.96059e+09      50.7635
  5.96583e+09      50.7723
  5.97108e+09      50.7767
  5.97633e+09      50.7781
  5.98157e+09       50.778
  5.98682e+09      50.7796
  5.99207e+09      50.7879
  5.99731e+09      50.8022
  6.00256e+09      50.8165
  6.00781e+09      50.8258
  6.01305e+09      50.8266
   6.0183e+09      50.8246
  6.02355e+09      50.8222
   6.0288e+09      50.8223
  6.03404e+09      50.8255
  6.03929e+09      50.8333
  6.04454e+09      50.8406
  6.04978e+09      50.8445
  6.05503e+09      50.8439
  6.06028e+09       50.839
  6.06552e+09      50.8349
  6.07077e+09      50.8328
  6.07602e+09      50.8344
  6.08126e+09      50.8406
  6.08651e+09      50.8493
  6.09176e+09       50.854
    6.097e+09      50.8542
  6.10225e+09      50.8535
   6.1075e+09       50.854
  6.11274e+09      50.8575
  6.11799e+09      50.8662
  6.12324e+09      50.8777
  6.12848e+09      50.8897
  6.13373e+09      50.8986
  6.13898e+09      50.9059
  6.14422e+09      50.9143
  6.14947e+09      50.9241
  6.15472e+09      50.9334
  6.15996e+09      50.9431
  6.16521e+09      50.9564
  6.17046e+09      50.9712
   6.1757e+09      50.9848
  6.18095e+09      50.9971
   6.1862e+09      51.0076
  6.19144e+09      51.0157
  6.19669e+09      51.0212
  6.20194e+09      51.0278
  6.20718e+09      51.0359
  6.21243e+09      51.0429
  6.21768e+09      51.0487
  6.22292e+09        51.05
  6.22817e+09      51.0489
  6.23342e+09      51.0462
  6.23866e+09      51.0438
  6.24391e+09      51.0426
  6.24916e+09      51.0427
   6.2544e+09      51.0394
  6.25965e+09      51.0353
   6.2649e+09      51.0317
  6.27014e+09       51.024
  6.27539e+09      51.0174
  6.28064e+09      51.0127
  6.28588e+09      51.0106
  6.29113e+09      51.0085
  6.29638e+09      51.0074
  6.30162e+09      51.0052
  6.30687e+09      51.0052
  6.31212e+09      51.0047
  6.31736e+09      51.0042
  6.32261e+09      51.0065
  6.32786e+09      51.0092
   6.3331e+09      51.0113
  6.33835e+09      51.0147
   6.3436e+09      51.0213
  6.34884e+09      51.0275
  6.35409e+09      51.0346
  6.35934e+09      51.0402
  6.36458e+09      51.0444
  6.36983e+09      51.0503
  6.37508e+09      51.0583
  6.38032e+09      51.0693
  6.38557e+09      51.0807
  6.39082e+09      51.0886
  6.39606e+09      51.0923
  6.40131e+09      51.0946
  6.40656e+09      51.0992
   6.4118e+09      51.1069
  6.41705e+09      51.1175
   6.4223e+09      51.1257
  6.42754e+09      51.1314
  6.43279e+09      51.1343
  6.43804e+09      51.1375
  6.44328e+09      51.1429
  6.44853e+09      51.1527
  6.45378e+09      51.1636
  6.45903e+09      51.1725
  6.46427e+09      51.1794
  6.46952e+09      51.1863
  6.47477e+09       51.195
  6.48001e+09      51.2042
  6.48526e+09      51.2157
  6.49051e+09      51.2288
  6.49575e+09      51.2403
    6.501e+09      51.2499
  6.50625e+09      51.2579
  6.51149e+09       51.267
  6.51674e+09       51.279
  6.52199e+09      51.2924
  6.52723e+09      51.3065
  6.53248e+09      51.3224
  6.53773e+09      51.3348
  6.54297e+09      51.3452
  6.54822e+09      51.3558
  6.55347e+09      51.3657
  6.55871e+09      51.3784
  6.56396e+09      51.3906
  6.56921e+09       51.402
  6.57445e+09      51.4121
   6.5797e+09      51.4198
  6.58495e+09      51.4255
  6.59019e+09      51.4301
  6.59544e+09      51.4334
  6.60069e+09      51.4377
  6.60593e+09      51.4435
  6.61118e+09      51.4484
  6.61643e+09      51.4503
  6.62167e+09      51.4488
  6.62692e+09      51.4433
  6.63217e+09      51.4392
  6.63741e+09      51.4363
  6.64266e+09      51.4363
  6.64791e+09      51.4381
  6.65315e+09      51.4383
   6.6584e+09      51.4342
  6.66365e+09      51.4277
  6.66889e+09      51.4234
  6.67414e+09       51.422
  6.67939e+09      51.4239
  6.68464e+09      51.4275
  6.68988e+09      51.4287
  6.69513e+09      51.4291
  6.70038e+09      51.4286
  6.70562e+09      51.4297
  6.71087e+09      51.4333
  6.71612e+09      51.4414
  6.72136e+09      51.4475
  6.72661e+09       51.455
  6.73186e+09      51.4634
   6.7371e+09      51.4703
  6.74235e+09       51.477
   6.7476e+09      51.4825
  6.75284e+09      51.4896
  6.75809e+09      51.4976
  6.76334e+09       51.509
  6.76858e+09       51.516
  6.77383e+09      51.5249
  6.77908e+09      51.5322
  6.78432e+09      51.5384
  6.78957e+09      51.5435
  6.79482e+09      51.5494
  6.80006e+09      51.5566
  6.80531e+09      51.5612
  6.81056e+09      51.5641
   6.8158e+09      51.5644
  6.82105e+09      51.5677
   6.8263e+09       51.568
  6.83154e+09      51.5669
  6.83679e+09      51.5652
  6.84204e+09      51.5646
  6.84728e+09      51.5659
  6.85253e+09      51.5674
  6.85778e+09      51.5689
  6.86302e+09      51.5703
  6.86827e+09      51.5695
  6.87352e+09      51.5652
  6.87876e+09      51.5639
  6.88401e+09      51.5631
  6.88926e+09      51.5638
   6.8945e+09      51.5676
  6.89975e+09      51.5708
    6.905e+09      51.5737
  6.91024e+09      51.5739
  6.91549e+09      51.5739
  6.92074e+09      51.5755
  6.92598e+09      51.5815
  6.93123e+09      51.5896
  6.93648e+09      51.6004
  6.94172e+09      51.6091
  6.94697e+09      51.6138
  6.95222e+09      51.6138
  6.95746e+09      51.6107
  6.96271e+09      51.6114
  6.96796e+09      51.6139
   6.9732e+09      51.6205
  6.97845e+09      51.6241
   6.9837e+09      51.6242
  6.98894e+09      51.6198
  6.99419e+09      51.6163
  6.99944e+09      51.6111
  7.00468e+09      51.6082
  7.00993e+09      51.6078
  7.01518e+09      51.6089
  7.02042e+09      51.6099
  7.02567e+09       51.608
  7.03092e+09      51.6065
  7.03616e+09      51.6047
  7.04141e+09       51.605
  7.04666e+09       51.605
   7.0519e+09      51.6079
  7.05715e+09      51.6134
   7.0624e+09      51.6204
  7.06764e+09      51.6285
  7.07289e+09      51.6375
  7.07814e+09      51.6458
  7.08338e+09      51.6524
  7.08863e+09      51.6616
  7.09388e+09      51.6703
  7.09913e+09      51.6804
  7.10437e+09      51.6919
  7.10962e+09      51.7063
  7.11487e+09      51.7205
  7.12011e+09      51.7353
  7.12536e+09      51.7484
  7.13061e+09      51.7615
  7.13585e+09      51.7762
   7.1411e+09      51.7902
  7.14635e+09      51.8055
  7.15159e+09      51.8203
  7.15684e+09      51.8333
  7.16209e+09      51.8427
  7.16733e+09      51.8525
  7.17258e+09      51.8586
  7.17783e+09      51.8642
  7.18307e+09      51.8694
  7.18832e+09      51.8734
  7.19357e+09       51.876
  7.19881e+09        51.88
  7.20406e+09      51.8835
  7.20931e+09       51.886
  7.21455e+09      51.8865
   7.2198e+09      51.8843
  7.22505e+09      51.8812
  7.23029e+09      51.8763
  7.23554e+09      51.8731
  7.24079e+09      51.8748
  7.24603e+09      51.8794
  7.25128e+09      51.8796
  7.25653e+09      51.8788
  7.26177e+09      51.8767
  7.26702e+09      51.8732
  7.27227e+09      51.8708
  7.27751e+09      51.8694
  7.28276e+09      51.8708
  7.28801e+09      51.8749
  7.29325e+09      51.8742
   7.2985e+09      51.8704
  7.30375e+09      51.8666
  7.30899e+09      51.8643
  7.31424e+09      51.8629
  7.31949e+09      51.8648
  7.32474e+09      51.8684
  7.32998e+09      51.8719
  7.33523e+09       51.872
  7.34048e+09      51.8653
  7.34572e+09      51.8549
  7.35097e+09      51.8469
  7.35622e+09      51.8437
  7.36146e+09      51.8436
  7.36671e+09      51.8444
  7.37196e+09      51.8423
   7.3772e+09      51.8352
  7.38245e+09      51.8261
   7.3877e+09      51.8189
  7.39294e+09      51.8151
  7.39819e+09       51.819
  7.40344e+09      51.8208
  7.40868e+09      51.8184
  7.41393e+09      51.8087
  7.41918e+09      51.8001
  7.42442e+09       51.794
  7.42967e+09      51.7924
  7.43492e+09       51.794
  7.44016e+09      51.7963
  7.44541e+09      51.7996
  7.45066e+09      51.7989
   7.4559e+09      51.8007
  7.46115e+09       51.804
   7.4664e+09      51.8087
  7.47164e+09      51.8145
  7.47689e+09       51.819
  7.48214e+09      51.8214
  7.48738e+09      51.8259
  7.49263e+09      51.8333
  7.49788e+09      51.8407
  7.50312e+09      51.8513
  7.50837e+09      51.8654
  7.51362e+09      51.8772
  7.51886e+09      51.8868
  7.52411e+09      51.8933
  7.52936e+09      51.9027
   7.5346e+09      51.9179
  7.53985e+09       51.935
   7.5451e+09      51.9497
  7.55034e+09      51.9631
  7.55559e+09      51.9717
  7.56084e+09      51.9733
  7.56608e+09      51.9787
  7.57133e+09      51.9938
  7.57658e+09      52.0124
  7.58182e+09      52.0292
  7.58707e+09      52.0416
  7.59232e+09      52.0467
  7.59756e+09      52.0516
  7.60281e+09      52.0556
  7.60806e+09      52.0643
   7.6133e+09      52.0736
  7.61855e+09      52.0831
   7.6238e+09      52.0876
  7.62904e+09      52.0898
  7.63429e+09      52.0931
  7.63954e+09      52.0969
  7.64478e+09      52.1007
  7.65003e+09      52.1036
  7.65528e+09      52.1059
  7.66052e+09        52.11
  7.66577e+09      52.1197
  7.67102e+09      52.1283
  7.67626e+09      52.1396
  7.68151e+09      52.1477
  7.68676e+09      52.1498
    7.692e+09      52.1487
  7.69725e+09      52.1518
   7.7025e+09      52.1578
  7.70774e+09      52.1706
  7.71299e+09      52.1817
  7.71824e+09      52.1854
  7.72348e+09      52.1873
  7.72873e+09      52.1817
  7.73398e+09      52.1765
  7.73922e+09        52.18
  7.74447e+09      52.1907
  7.74972e+09      52.2022
  7.75497e+09      52.2085
  7.76021e+09      52.2063
  7.76546e+09      52.1991
  7.77071e+09      52.1931
  7.77595e+09      52.1845
   7.7812e+09      52.1832
  7.78645e+09       52.184
  7.79169e+09      52.1842
  7.79694e+09      52.1812
  7.80219e+09       52.178
  7.80743e+09       52.175
  7.81268e+09       52.174
  7.81793e+09      52.1766
  7.82317e+09      52.1807
  7.82842e+09      52.1872
  7.83367e+09      52.1888
  7.83891e+09      52.1945
  7.84416e+09      52.2005
  7.84941e+09      52.2056
  7.85465e+09      52.2102
   7.8599e+09      52.2185
  7.86515e+09      52.2275
  7.87039e+09      52.2357
  7.87564e+09      52.2493
  7.88089e+09      52.2678
  7.88613e+09      52.2885
  7.89138e+09      52.3061
  7.89663e+09      52.3148
  7.90187e+09      52.3215
  7.90712e+09        52.33
  7.91237e+09      52.3401
  7.91761e+09       52.353
  7.92286e+09      52.3745
  7.92811e+09      52.3965
  7.93335e+09      52.4148
   7.9386e+09      52.4249
  7.94385e+09      52.4338
  7.94909e+09      52.4507
  7.95434e+09      52.4713
  7.95959e+09       52.491
  7.96483e+09      52.5094
  7.97008e+09       52.526
  7.97533e+09      52.5345
  7.98058e+09      52.5379
  7.98582e+09      52.5408
  7.99107e+09      52.5482
  7.99632e+09      52.5609
  8.00156e+09      52.5711
  8.00681e+09      52.5804
  8.01206e+09      52.5843
   8.0173e+09      52.5841
  8.02255e+09      52.5813
   8.0278e+09      52.5818
  8.03304e+09      52.5842
  8.03829e+09      52.5855
  8.04354e+09      52.5885
  8.04878e+09      52.5826
  8.05403e+09      52.5797
  8.05928e+09      52.5729
  8.06452e+09      52.5694
  8.06977e+09       52.576
  8.07502e+09      52.5929
  8.08026e+09      52.5999
  8.08551e+09      52.5966
  8.09076e+09      52.5942
    8.096e+09      52.5894
  8.10125e+09      52.5864
   8.1065e+09      52.5832
  8.11174e+09      52.5891
  8.11699e+09      52.6011
  8.12224e+09      52.6087
  8.12748e+09       52.608
  8.13273e+09      52.6155
  8.13798e+09      52.6252
  8.14322e+09      52.6254
  8.14847e+09      52.6204
  8.15372e+09      52.6198
  8.15896e+09      52.6239
  8.16421e+09      52.6289
  8.16946e+09      52.6363
   8.1747e+09      52.6453
  8.17995e+09      52.6503
   8.1852e+09      52.6455
  8.19044e+09      52.6386
  8.19569e+09      52.6412
  8.20094e+09      52.6595
  8.20618e+09      52.6835
  8.21143e+09      52.7032
  8.21668e+09      52.7182
  8.22192e+09      52.7255
  8.22717e+09      52.7267
  8.23242e+09      52.7307
  8.23766e+09      52.7439
  8.24291e+09      52.7753
  8.24816e+09      52.8143
   8.2534e+09      52.8527
  8.25865e+09      52.8932
   8.2639e+09      52.9264
  8.26914e+09      52.9496
  8.27439e+09      52.9677
  8.27964e+09      52.9868
  8.28488e+09      53.0132
  8.29013e+09      53.0483
  8.29538e+09      53.0863
  8.30062e+09       53.135
  8.30587e+09      53.1825
  8.31112e+09      53.2115
  8.31636e+09      53.2359
  8.32161e+09      53.2591
  8.32686e+09      53.2812
   8.3321e+09      53.3096
  8.33735e+09      53.3423
   8.3426e+09      53.3812
  8.34784e+09      53.4213
  8.35309e+09      53.4345
  8.35834e+09      53.4324
  8.36358e+09      53.4324
  8.36883e+09       53.435
  8.37408e+09      53.4499
  8.37932e+09      53.4788
  8.38457e+09      53.5094
  8.38982e+09      53.5318
  8.39507e+09      53.5441
  8.40031e+09      53.5347
  8.40556e+09      53.5236
  8.41081e+09      53.5113
  8.41605e+09      53.5048
   8.4213e+09      53.5111
  8.42655e+09      53.5293
  8.43179e+09      53.5531
  8.43704e+09      53.5683
  8.44229e+09      53.5753
  8.44753e+09      53.5747
  8.45278e+09      53.5768
  8.45803e+09        53.58
  8.46327e+09      53.5933
  8.46852e+09      53.6126
  8.47377e+09      53.6351
  8.47901e+09      53.6493
  8.48426e+09      53.6504
  8.48951e+09      53.6584
  8.49475e+09      53.6823
